File: comp-class/data/170330-00.txt
EC-Lab ASCII FILE
Nb header lines : 59

Potentio Electrochemical Impedance Spectroscopy

Run on channel : 1 (SN 1013)
User :
Electrode connection : standard
Ewe ctrl range : min = -10.00 V, max = 10.00 V
Ewe,I filtering : 50 kHz
Channel : Floating
Acquisition started on : 03/30/2017 14:18:37
Saved on :
	File : 170330-00.mpr
	Directory : C:\EC-Lab\Data\Remington\
	Host : 127.0.0.1
Device : SP-300 (SN 0316)
Address : USB
EC-Lab for windows v10.33 (software)
Internet server v10.33 (firmware)
Command interpretor v10.32 (firmware)
Electrode material :
Initial state :
Electrolyte :
Comments :
Cable : standard
Electrode surface area : 0.001 cm²
Characteristic mass : 0.001 g
Equivalent Weight : 0.000 g/eq.
Density : 0.000 g/cm3
Mode                Single sine
E (V)               0.0000
vs.                 Eoc
tE (h:m:s)          0:00:0.0000
record              0
dI                  0.000
unit dI             mA
dt (s)              0.000
fi                  7.000
unit fi             MHz
ff                  1.000
unit ff             Hz
Nd                  10
Points              per decade
spacing             Logarithmic
Va (mV)             10.0
pw                  0.10
Na                  1
corr                0
E range min (V)     -10.000
E range max (V)     10.000
I Range             Auto
Bandwidth           8
nc cycles           0
goto Ns'            0
nr cycles           0
inc. cycle          0

freq/Hz	Re(Z)/Ohm	-Im(Z)/Ohm	|Z|/Ohm	Phase(Z)/deg	time/s	<Ewe>/V	<I>/mA	Cs/µF	Cp/µF	cycle number	I Range	|Ewe|/V	|I|/A	Re(Y)/Ohm-1	Im(Y)/Ohm-1	|Y|/Ohm-1	Phase(Y)/deg
7.00002e+06	895.754	147.373	907.796	-9.34282	2.5206	0.000326863	3.8182e-05	0.000154278	4.06595e-06	1	40	0.00771475	8.49833e-06	0.00108696	0.00017883	0.00110157	9.34282
5.55181e+06	978.206	77.7543	981.291	-4.54469	3.43759	-1.49185e-05	3.39294e-05	0.00036869	2.31481e-06	1	40	0.0102452	1.04405e-05	0.00101586	8.07474e-05	0.00101907	4.54469
4.40323e+06	966.233	76.2272	969.235	-4.51079	3.54674	-1.93737e-05	3.6149e-05	0.000474175	2.93292e-06	1	40	0.01024	1.05651e-05	0.00102855	8.11431e-05	0.00103174	4.51079
3.49227e+06	968.327	64.6086	970.48	-3.81722	3.65673	-1.19546e-05	3.5291e-05	0.000705378	3.12628e-06	1	40	0.0101217	1.04296e-05	0.00102813	6.85988e-05	0.00103042	3.81722
2.76978e+06	974.008	62.6242	976.019	-3.67879	3.8666	-1.84976e-05	3.02924e-05	0.000917558	3.77747e-06	1	40	0.0100801	1.03277e-05	0.00102246	6.57393e-05	0.00102457	3.67879
2.19675e+06	976.581	51.3587	977.931	-3.01043	4.0766	-1.09666e-05	3.00313e-05	0.00141067	3.89078e-06	1	40	0.0109906	1.12387e-05	0.00102116	5.37029e-05	0.00102257	3.01043
1.74228e+06	983.122	50.0906	984.397	-2.91673	4.28661	-1.50676e-05	2.95463e-05	0.00182366	4.72189e-06	1	40	0.010373	1.05374e-05	0.00101453	5.1691e-05	0.00101585	2.91673
1.38184e+06	988.495	46.041	989.567	-2.66673	4.49759	-1.92432e-05	2.839e-05	0.00250161	5.41524e-06	1	40	0.010828	1.09421e-05	0.00100945	4.70169e-05	0.00101054	2.66673
1.09596e+06	990.542	43.582	991.5	-2.51928	4.70759	-9.54994e-06	2.56668e-05	0.0033321	6.43795e-06	1	40	0.0100816	1.01681e-05	0.0010076	4.43325e-05	0.00100857	2.51928
869214	993.588	45.9611	994.65	-2.64848	4.91759	0.000324365	8.7609e-05	0.00398385	8.50635e-06	1	40	0.0108929	1.09515e-05	0.0010043	4.64568e-05	0.00100538	2.64848
689392	996.309	44.1418	997.286	-2.53685	5.12759	0.000364834	9.4249e-05	0.00523003	1.02462e-05	1	40	0.0103574	1.03856e-05	0.00100174	4.43824e-05	0.00100272	2.53685
546765	998.077	47.4961	999.207	-2.72451	5.4386	0.000379878	9.51443e-05	0.0061286	1.38473e-05	1	40	0.0100628	1.00708e-05	0.000999663	4.75715e-05	0.00100079	2.72451
433655	999.753	51.8429	1001.1	-2.96846	5.6486	0.000389888	0.000101374	0.00707924	1.89852e-05	1	40	0.00999071	9.97977e-06	0.000997565	5.17295e-05	0.000998905	2.96846
343933	1001.49	58.6878	1003.21	-3.35373	5.8576	0.000386253	0.000103015	0.00788494	2.69845e-05	1	40	0.0104554	1.0422e-05	0.000995098	5.83133e-05	0.000996805	3.35373
272778	1002.96	69.4914	1005.37	-3.96348	6.06761	0.000392796	0.000100628	0.00839613	4.01138e-05	1	40	0.0103991	1.03436e-05	0.000992284	6.87516e-05	0.000994663	3.96348
216345	1005.41	84.0418	1008.92	-4.77822	6.27859	0.000382245	9.61516e-05	0.00875342	6.07377e-05	1	40	0.0102273	1.01369e-05	0.000987718	8.2563e-05	0.000991163	4.77822
171582	1009.05	103.687	1014.37	-5.86696	6.4886	0.000381182	9.94716e-05	0.00894586	9.34727e-05	1	40	0.0105135	1.03646e-05	0.000980673	0.000100771	0.000985837	5.86696
136084	1014.57	125.956	1022.35	-7.07695	6.6986	0.00037943	9.96954e-05	0.00928525	0.000140939	1	40	0.0105543	1.03236e-05	0.000970683	0.000120508	0.000978135	7.07695
107935	1023.77	156.76	1035.7	-8.70553	6.9086	0.000377026	9.11529e-05	0.00940641	0.000215489	1	40	0.0103232	9.96731e-06	0.000954404	0.000146139	0.000965528	8.70553
85607.9	1036.66	193.164	1054.5	-10.5551	7.1176	0.000371974	9.35404e-05	0.00962456	0.000322953	1	40	0.0104458	9.90598e-06	0.000932271	0.000173713	0.000948317	10.5551
67895.5	1057.55	235.222	1083.4	-12.5396	7.3286	0.00038273	9.75878e-05	0.00996556	0.000469766	1	40	0.0102877	9.4958e-06	0.000901006	0.000200402	0.000923023	12.5396
53845.2	1089.87	285.87	1126.74	-14.6974	7.5376	0.000379132	9.76624e-05	0.0103396	0.000665572	1	40	0.0102314	9.08054e-06	0.000858477	0.000225176	0.000887518	14.6974
42712.4	1134.29	342.905	1184.99	-16.8205	7.74761	0.000382823	9.24585e-05	0.0108666	0.000909943	1	40	0.01018	8.59081e-06	0.000807786	0.000244201	0.000843892	16.8205
33874.5	1199.13	398.402	1263.58	-18.3787	7.85774	0.000385134	9.45848e-05	0.011793	0.00117237	1	40	0.0109339	8.65313e-06	0.000751036	0.000249527	0.000791403	18.3787
26867.7	1280.73	449.335	1357.26	-19.3331	8.06761	0.000376261	9.53308e-05	0.0131832	0.00144488	1	40	0.0101752	7.49683e-06	0.00069523	0.000243918	0.000736778	19.3331
21301.3	1381.5	486.236	1464.57	-19.3902	8.17873	0.000384016	9.29061e-05	0.0153662	0.00169373	1	40	0.0103459	7.06414e-06	0.000644067	0.000226688	0.000682796	19.3902
16894.5	1492.68	499.861	1574.15	-18.5144	8.28873	0.000381518	9.82405e-05	0.0188462	0.00190033	1	40	0.0103942	6.60302e-06	0.000602384	0.000201723	0.000635263	18.5144
13403.3	1606.07	487.43	1678.4	-16.8827	8.39773	0.000377603	9.34283e-05	0.024361	0.0020546	1	40	0.0103895	6.19011e-06	0.000570126	0.000173029	0.000595804	16.8827
10634.5	1708.68	457.415	1768.84	-14.9867	8.52364	0.000377137	9.57598e-05	0.0327183	0.00218793	1	40	0.0103679	5.86138e-06	0.000546112	0.000146195	0.000565341	14.9867
8500.86	1787.88	408.992	1834.06	-12.8852	8.67424	0.000372701	9.35402e-05	0.0457765	0.00227637	1	40	0.0103497	5.64306e-06	0.000531507	0.000121587	0.000545237	12.8852
6802.72	1849.66	357.114	1883.81	-10.9277	8.8582	0.000380306	9.71586e-05	0.0655135	0.00235433	1	40	0.0103287	5.48285e-06	0.000521213	0.000100631	0.000530838	10.9277
5342.37	1900	300.777	1923.66	-8.99548	9.08624	0.000363613	9.57412e-05	0.0990472	0.00242144	1	40	0.00952395	4.95096e-06	0.000513449	8.12808e-05	0.000519843	8.99548
4206.34	1933.07	250.341	1949.21	-7.37899	9.32154	0.00036352	9.24771e-05	0.151142	0.00249305	1	40	0.00976449	5.00946e-06	0.00050878	6.58893e-05	0.000513029	7.37899
3336.06	1959.98	213.32	1971.55	-6.21149	9.55754	0.00036901	9.50604e-05	0.223643	0.00261818	1	40	0.00996963	5.05674e-06	0.000504237	5.488e-05	0.000507215	6.21149
2645.84	1966.92	179.021	1975.05	-5.20048	9.79354	0.000366204	9.21787e-05	0.336011	0.00276059	1	40	0.0100802	5.10376e-06	0.000504232	4.58929e-05	0.000506316	5.20048
2097.99	1977.42	158.262	1983.74	-4.5759	10.0298	0.000367938	9.72706e-05	0.479336	0.00305088	1	40	0.0101507	5.11693e-06	0.000502491	4.02168e-05	0.000504098	4.5759
1663.4	1984.63	139.27	1989.51	-4.0141	10.2669	0.000375366	9.62914e-05	0.687015	0.00336656	1	40	0.0102064	5.13008e-06	0.000501403	3.51855e-05	0.000502636	4.0141
1320.42	1988.71	130.018	1992.95	-3.74056	10.5035	0.000373456	9.57319e-05	0.927055	0.00394563	1	40	0.0102356	5.13589e-06	0.0005007	3.27347e-05	0.000501769	3.74056
1046.67	1990.99	127.754	1995.08	-3.67142	10.7393	0.000371853	9.6338e-05	1.19024	0.00488049	1	40	0.0102517	5.13849e-06	0.000500204	3.20963e-05	0.000501233	3.67142
830.263	1994.81	130.879	1999.1	-3.75378	10.9745	0.000360724	9.90705e-05	1.46465	0.00627777	1	40	0.0102668	5.13569e-06	0.000499152	3.27492e-05	0.000500225	3.75378
658.525	1997.41	140.774	2002.36	-4.03144	11.2111	0.000368991	9.9686e-05	1.71683	0.00848562	1	40	0.0102755	5.13167e-06	0.000498174	3.51104e-05	0.00049941	4.03144
522.172	1997.28	160.564	2003.73	-4.5962	11.4457	0.00036393	9.74944e-05	1.89827	0.0121893	1	40	0.0102777	5.12927e-06	0.000497465	3.99918e-05	0.00049907	4.5962
414.073	2004.45	185.201	2012.98	-5.27885	11.6821	0.00036243	0.00010517	2.0754	0.0175673	1	40	0.0102925	5.11305e-06	0.000494668	4.57049e-05	0.000496775	5.27885
328.424	2006.43	223.142	2018.8	-6.346	11.9187	0.000368702	0.000100413	2.17172	0.0265327	1	40	0.0102815	5.09286e-06	0.000492309	5.47515e-05	0.000495344	6.346
260.416	2012.69	271.282	2030.89	-7.67639	12.1542	0.000362681	9.92943e-05	2.25284	0.0401976	1	40	0.0102794	5.06152e-06	0.000487982	6.57731e-05	0.000492395	7.67639
206.653	2024.89	335.159	2052.44	-9.39835	12.3879	0.000347098	9.88467e-05	2.29788	0.0612756	1	40	0.0102863	5.01176e-06	0.000480685	7.95627e-05	0.000487225	9.39835
164.003	2039.89	411.414	2080.96	-11.4027	12.626	0.000358254	9.99191e-05	2.35879	0.0921977	1	40	0.0102846	4.94226e-06	0.000471062	9.50061e-05	0.000480548	11.4027
130.042	2068.74	513.993	2131.63	-13.953	12.8616	0.000365971	0.000100012	2.38111	0.138443	1	40	0.0102909	4.82771e-06	0.000455282	0.000113118	0.000469124	13.953
103.054	2112.82	633.143	2205.64	-16.6818	13.1018	0.00036695	9.6394e-05	2.43923	0.200995	1	40	0.0102847	4.66291e-06	0.000434301	0.000130146	0.000453383	16.6818
81.8066	2176.86	783.082	2313.43	-19.7852	13.5733	0.00037299	2.38934e-05	2.48442	0.284661	1	41	0.0102855	4.446e-06	0.000406742	0.000146318	0.000432259	19.7852
64.8547	2276.99	956.556	2469.75	-22.7871	13.8091	0.000376028	2.22519e-05	2.56548	0.384842	1	41	0.0102913	4.16692e-06	0.000373297	0.000156821	0.000404899	22.7871
51.4657	2421.04	1149.49	2680.06	-25.398	14.0383	0.000370063	2.21223e-05	2.69028	0.494898	1	41	0.0102912	3.8399e-06	0.000337063	0.000160035	0.000373125	25.398
40.7963	2627.18	1354.7	2955.89	-27.2777	14.2703	0.000379234	2.22528e-05	2.87977	0.604874	1	41	0.0102938	3.48246e-06	0.000300686	0.000155048	0.000338308	27.2777
32.3723	2898.85	1546.45	3285.55	-28.0785	14.4895	0.000374155	2.21381e-05	3.17916	0.704314	1	41	0.0102832	3.12984e-06	0.000268541	0.000143258	0.000304363	28.0785
25.6652	3244.13	1693.93	3659.75	-27.5715	14.7199	0.000367323	2.3018e-05	3.66082	0.784275	1	41	0.0102858	2.81052e-06	0.000242212	0.000126472	0.000273243	27.5715
20.3451	3641.97	1769.41	4049.04	-25.9123	14.9519	0.000366111	2.39856e-05	4.42112	0.844277	1	41	0.0102906	2.54149e-06	0.000222143	0.000107926	0.000246972	25.9123
16.1415	4047.42	1750.83	4409.88	-23.3923	15.1731	0.000373614	2.4103e-05	5.63158	0.8877	1	41	0.0102869	2.33268e-06	0.000208125	9.00308e-05	0.000226763	23.3923
12.8074	4425.56	1646.78	4722.02	-20.4105	15.4463	0.00037505	2.50006e-05	7.54613	0.917781	1	41	0.0102825	2.17757e-06	0.000198478	7.3855e-05	0.000211774	20.4105
10.1593	4751.64	1474.45	4975.14	-17.2393	15.6782	0.000377342	2.54527e-05	10.6249	0.9332	1	41	0.0102852	2.06732e-06	0.000191969	5.95688e-05	0.000200999	17.2393
8.04998	5003.18	1279.32	5164.15	-14.3433	15.9669	0.000377256	2.55385e-05	15.4542	0.948431	1	41	0.0102891	1.99241e-06	0.000187607	4.79712e-05	0.000193643	14.3433
6.38798	5176.81	1078.22	5287.9	-11.7653	16.1548	0.000375087	2.53017e-05	23.1073	0.960724	1	41	0.0102782	1.94373e-06	0.000185138	3.85604e-05	0.000189111	11.7653
5.06647	5310.66	887.694	5384.34	-9.48943	16.3877	0.000382059	2.53567e-05	35.3876	0.961861	1	41	0.0102859	1.91034e-06	0.000183182	3.06195e-05	0.000185724	9.48943
4.01878	5391.84	722.295	5440.01	-7.62996	16.6773	0.000375621	2.55777e-05	54.8292	0.96659	1	41	0.0102803	1.88975e-06	0.000182196	2.44071e-05	0.000183823	7.62996
3.18748	5449.6	582.182	5480.61	-6.09779	17.0377	0.000373403	2.46039e-05	85.7658	0.967775	1	41	0.0102819	1.87606e-06	0.000181429	1.93821e-05	0.000182462	6.09779
2.52668	5487.5	466.635	5507.31	-4.86051	17.488	0.000371494	2.41324e-05	134.987	0.9691	1	41	0.0102877	1.86801e-06	0.000180924	1.5385e-05	0.000181577	4.86051
2.00321	5506.98	372.655	5519.58	-3.87128	18.5951	0.000369243	1.26312e-05	213.2	0.971829	1	42	0.0102661	1.85995e-06	0.00018076	1.22319e-05	0.000181173	3.87128
1.58984	5523.89	295.391	5531.79	-3.06099	19.3015	0.000363229	1.19602e-05	338.898	0.966346	1	42	0.010269	1.85636e-06	0.000180515	9.6531e-06	0.000180773	3.06099
1.26171	5530.05	236.372	5535.1	-2.44751	20.1874	0.000370539	1.2478e-05	533.66	0.973206	1	42	0.0102616	1.85392e-06	0.0001805	7.71515e-06	0.000180665	2.44751
1.00006	5536.59	188.091	5539.78	-1.94573	21.3015	0.000364353	1.12896e-05	846.106	0.975387	1	42	0.0102656	1.85308e-06	0.000180408	6.12892e-06	0.000180513	1.94573